#TIME 	I(ADC)	phi(deg)	Temperature(K)	vdemod(Vdac)
0.58696	36.45346	337.76821	0.70773	0.00322
1.04513	36.46056	337.75736	0.71069	0.00322
1.52781	36.46174	337.76780	0.71303	0.00322
1.87606	36.46119	337.76942	0.71552	0.00322
2.26751	36.45793	337.76990	0.71743	0.00322
2.65944	36.45601	337.75068	0.71939	0.00322
3.12774	36.44924	337.75977	0.72073	0.00322
3.58696	36.44531	337.76475	0.72323	0.00322
4.00000	36.45439	337.78304	0.75338	0.00322
4.42128	36.44194	337.77722	0.76725	0.00322
4.89792	36.44162	337.79006	0.77180	0.00322
5.43151	36.44920	337.79769	0.76968	0.00483
5.86058	36.44244	337.80047	0.76536	0.00322
6.26804	36.43918	337.79996	0.76142	0.00322
6.60800	36.44643	337.79236	0.75753	0.00322
7.12469	36.44157	337.77817	0.75341	0.00483
7.64249	36.44171	337.79309	0.74977	0.00322
7.99602	36.44505	337.77783	0.74630	0.00322
8.38713	36.45086	337.77821	0.74504	0.00322
8.70311	36.44965	337.77901	0.74283	0.00483
9.15494	36.44662	337.78438	0.74139	0.00322
9.68976	36.45057	337.78177	0.73825	0.00322
10.28013	36.45528	337.78638	0.73418	0.00322
10.69496	36.45422	337.76771	0.72764	0.00322
11.17824	36.45331	337.76831	0.72294	0.00322
11.59312	36.45190	337.75633	0.71874	0.00322
12.19149	36.46299	337.76979	0.71472	0.00322
12.87491	36.46564	337.74896	0.71062	0.00322
13.22985	36.45536	337.74353	0.70673	0.00483
13.68367	36.46235	337.75001	0.70461	0.00322
14.17918	36.46744	337.75703	0.70246	0.00322
14.80593	36.45953	337.76421	0.69979	0.00322
15.45901	36.45619	337.74901	0.69722	0.00322
16.00181	36.45932	337.75873	0.69481	0.00322
16.80857	36.46972	337.75455	0.69314	0.00322
17.41960	36.46301	337.73976	0.68843	0.00322
17.92258	36.47056	337.76003	0.68666	0.00322
18.55205	36.46040	337.75508	0.68308	0.00322
19.02188	36.46267	337.75120	0.68114	0.00322
19.46435	36.46890	337.74611	0.67875	0.00322
20.10274	36.46595	337.74778	0.67413	0.00322
20.58920	36.47243	337.74799	0.67017	0.00322
21.00619	36.47189	337.72689	0.66782	0.00322
21.47665	36.46335	337.73504	0.66502	0.00322
22.04096	36.46841	337.73058	0.66717	0.00322
22.53534	36.47370	337.73636	0.66888	0.00322
22.94277	36.47259	337.73050	0.66252	0.00322
23.45565	36.46851	337.72393	0.65824	0.00322
23.81978	36.47137	337.73130	0.65612	0.00322
24.27008	36.47528	337.73224	0.65417	0.00322
24.66996	36.47025	337.72307	0.65298	0.00322
25.27789	36.47690	337.72360	0.65581	0.00483
25.75221	36.47652	337.73955	0.65595	0.00322
26.17061	36.47252	337.71919	0.65573	0.00483
26.54602	36.47126	337.73558	0.65434	0.00322
27.09168	36.47188	337.72550	0.65309	0.00322
27.73454	36.46827	337.71764	0.65182	0.00322
28.27832	36.47971	337.72007	0.64993	0.00483
28.60858	36.47529	337.72592	0.64871	0.00322
29.14662	36.47872	337.71904	0.64587	0.00322
29.64610	36.47920	337.72251	0.64435	0.00322
30.13060	36.48247	337.72204	0.64238	0.00322
30.48724	36.47479	337.72639	0.64059	0.00322
30.88662	36.48232	337.70476	0.63922	0.00322
31.26773	36.47463	337.72510	0.63787	0.00322
31.71139	36.48956	337.71850	0.63657	0.00161
32.14798	36.48603	337.71564	0.63539	0.00161
32.79201	36.48012	337.71559	0.63366	0.00322
33.28097	36.47632	337.70800	0.63161	0.00322
33.64644	36.47831	337.70039	0.62981	0.00483
34.19804	36.48149	337.72240	0.62841	0.00322
34.60630	36.48245	337.70859	0.62687	0.00483
35.07965	36.47221	337.72809	0.62527	0.00322
35.53069	36.49720	337.71236	0.62420	0.00322
35.98464	36.49323	337.71020	0.62242	0.00322
36.36120	36.48930	337.70549	0.62141	0.00322
36.76678	36.49103	337.70660	0.61954	0.00322
37.22087	36.48369	337.71591	0.61815	0.00322
37.89593	36.48133	337.69602	0.61654	0.00483
38.45450	36.47679	337.69704	0.61409	0.00161
38.93146	36.49322	337.70110	0.61275	0.00483
39.58073	36.48150	337.67517	0.61063	0.00322
40.29436	36.48452	337.69491	0.60874	0.00322
40.97565	36.49779	337.68745	0.60728	0.00322
41.50219	36.48259	337.69169	0.60502	0.00322
42.05411	36.48351	337.70117	0.60393	0.00322
42.54460	36.48998	337.67689	0.60261	0.00322
43.36599	36.49278	337.68304	0.60091	0.00322
43.96184	36.48601	337.68440	0.59897	0.00322
44.44931	36.49223	337.68466	0.59762	0.00322
44.80718	36.48378	337.68712	0.59608	0.00322
45.41843	36.49616	337.68600	0.59512	0.00322
45.94947	36.49028	337.68874	0.59295	0.00322
46.55195	36.49370	337.67375	0.59190	0.00322
46.91694	36.49706	337.66861	0.59005	0.00483
47.33545	36.49955	337.68700	0.58926	0.00322
47.74099	36.49136	337.68173	0.58795	0.00322
48.21920	36.50614	337.65747	0.58653	0.00322
48.57571	36.49681	337.68208	0.58535	0.00322
48.98264	36.49847	337.68967	0.58446	0.00322
49.38190	36.49829	337.68362	0.58418	0.00322
49.90543	36.50804	337.65791	0.58290	0.00322
50.61831	36.50378	337.66168	0.58080	0.00322
51.25015	36.49978	337.67312	0.57941	0.00322
51.61667	36.49860	337.67474	0.57741	0.00322
52.25322	36.49636	337.66262	0.57633	0.00322
52.66798	36.51328	337.65714	0.57516	0.00322
53.22374	36.51136	337.66735	0.57408	0.00483
53.65087	36.49651	337.67359	0.57246	0.00322
54.18433	36.51020	337.67707	0.57205	0.00322
54.82124	36.50603	337.66511	0.56961	0.00322
55.21179	36.51639	337.65342	0.56847	0.00322
55.84291	36.51510	337.66700	0.56717	0.00322
56.32443	36.50308	337.63791	0.56534	0.00322
56.86695	36.51446	337.66224	0.56443	0.00322
57.35882	36.50746	337.65003	0.56303	0.00483
57.91889	36.51433	337.66078	0.56138	0.00483
58.35620	36.51958	337.65903	0.56005	0.00322
58.87086	36.50840	337.65893	0.55897	0.00322
59.35981	36.51380	337.64503	0.55787	0.00322
59.84055	36.50692	337.64968	0.55652	0.00322
60.37315	36.51630	337.66047	0.55483	0.00322
60.85743	36.51587	337.64578	0.55368	0.00322
61.12551	36.51881	337.64609	0.55303	0.00322
61.71692	36.52463	337.65320	0.55239	0.00322
62.04327	36.53295	337.64258	0.55041	0.00322
62.45828	36.52594	337.65444	0.54977	0.00322
63.03549	36.52368	337.66306	0.54874	0.00322
63.42926	36.51752	337.64190	0.54689	0.00483
63.81167	36.52876	337.65330	0.54629	0.00322
64.36688	36.53270	337.64064	0.54538	0.00322
64.79254	36.52562	337.64989	0.54375	0.00322
65.53790	36.52964	337.63649	0.54302	0.00322
65.94808	36.54467	337.63967	0.54135	0.00322
66.53787	36.54700	337.64611	0.54026	0.00322
66.94381	36.54833	337.63434	0.53865	0.00483
67.34934	36.56243	337.63337	0.53775	0.00322
67.76885	36.60403	337.64657	0.53647	0.00322
68.54044	37.88317	337.57548	0.53547	0.00322
68.93396	40.23178	337.48769	0.53396	0.00322
69.43073	50.53302	336.82841	0.53363	0.00322
70.01509	70.10783	335.94041	0.53268	0.00483
70.44140	94.54229	334.71757	0.53150	0.00322
71.13245	143.47404	332.44782	0.53102	0.00322
71.56869	177.52040	330.73759	0.53003	0.00322
72.07551	207.07070	329.72492	0.52917	0.00322
72.55209	236.57099	328.63390	0.52833	0.00483
73.03660	271.68252	327.30107	0.52764	0.00483
73.53193	313.24148	325.68154	0.52687	0.00322
74.03687	347.15599	324.42111	0.52591	0.00322
74.51945	370.20915	323.66264	0.52508	0.00322
75.17949	401.04117	322.59113	0.52449	0.00322
75.78070	428.58413	321.59648	0.52347	0.00483
76.25236	450.95091	320.75099	0.52267	0.00322
76.68464	473.99171	319.86349	0.52167	0.00322
77.12949	500.62935	318.83470	0.52091	0.00483
77.79847	540.79449	317.21302	0.52011	0.00483
78.27225	572.30147	315.90863	0.51898	0.00322
78.77331	609.46412	314.30991	0.51812	0.00483
79.25602	650.29515	312.51360	0.51746	0.00322
79.79009	704.21017	310.08997	0.51675	0.00322
80.21690	747.29923	308.16256	0.51570	0.00483
80.68658	793.37479	306.08686	0.51512	0.00483
81.29344	845.41062	303.81693	0.51413	0.00322
81.77668	884.74430	301.94924	0.51315	0.00322
82.22284	907.99974	300.89453	0.51261	0.00483
82.75534	918.19494	300.38526	0.51219	0.00483
83.20777	873.80950	302.51418	0.51444	0.00483
83.78082	822.39757	304.82491	0.51659	0.00483
84.16601	790.21549	306.19954	0.51764	0.00322
84.59898	794.52097	305.99623	0.51706	0.00483
85.00167	773.19886	306.94398	0.51638	0.00322
85.34543	747.66488	308.13072	0.51762	0.00322
85.63625	724.05807	309.16942	0.51845	0.00322
86.08560	685.69272	310.90559	0.51892	0.00322
86.63481	642.26364	312.84384	0.51970	0.00483
87.13886	608.52507	314.32259	0.52015	0.00483
87.61301	582.65023	315.45129	0.52090	0.00322
88.14334	551.49416	316.76035	0.52155	0.00322
88.60021	529.17138	317.66241	0.52235	0.00322
89.03381	508.72371	318.48213	0.52280	0.00322
89.49422	489.04840	319.26920	0.52329	0.00483
89.97926	467.08686	320.12133	0.52399	0.00322
90.50183	445.90240	320.92754	0.52481	0.00322
91.09450	427.94891	321.61064	0.52513	0.00483
91.59839	413.21588	322.14221	0.52560	0.00322
91.99983	402.11365	322.54016	0.52594	0.00322
92.30675	393.99292	322.82739	0.52606	0.00322
92.91816	379.18581	323.34909	0.52644	0.00483
93.34396	368.45613	323.70729	0.52687	0.00483
93.82424	357.32936	324.08444	0.52705	0.00322
94.30036	345.93655	324.45971	0.52752	0.00322
94.82399	332.59211	324.89284	0.52811	0.00322
95.28978	316.82330	325.52555	0.52841	0.00322
95.68339	302.30755	326.09483	0.52870	0.00322
96.04987	287.65642	326.68347	0.52908	0.00322
96.59855	267.26438	327.48723	0.52918	0.00483
96.97557	253.18345	328.03003	0.52976	0.00322
97.50555	233.76365	328.73822	0.52998	0.00483
98.10082	214.59874	329.44615	0.53080	0.00322
98.67711	198.18698	330.05333	0.53087	0.00483
99.20662	184.78080	330.51450	0.53147	0.00322
99.70596	172.43672	330.94671	0.53176	0.00322
100.29130	148.15058	332.22832	0.53198	0.00322
100.79773	125.96429	333.25277	0.53262	0.00322
101.38022	104.88444	334.19492	0.53314	0.00322
101.76248	90.58628	334.91850	0.53363	0.00483
102.37703	72.02497	335.83567	0.53402	0.00322
102.92160	60.41606	336.39284	0.53449	0.00483
103.35867	54.91227	336.62736	0.53498	0.00322
103.75816	50.73297	336.81909	0.53549	0.00322
104.14964	46.74239	337.06739	0.53574	0.00322
104.67469	41.87666	337.34860	0.53612	0.00483
105.06319	39.45880	337.49551	0.53686	0.00322
105.49367	38.32168	337.56962	0.53707	0.00322
105.88048	37.81157	337.55494	0.53740	0.00322
106.47380	37.20939	337.57029	0.53784	0.00322
106.91441	36.80567	337.59810	0.53836	0.00322
107.38584	36.64753	337.62573	0.53839	0.00322
107.78742	36.58910	337.62769	0.53899	0.00483
108.25143	36.58390	337.62690	0.53936	0.00322
108.72577	36.56471	337.62182	0.53990	0.00483
109.22546	36.55366	337.62988	0.54012	0.00322
109.76660	36.54803	337.62684	0.54059	0.00322
110.13559	36.55558	337.62303	0.54108	0.00322
110.50842	36.54681	337.64204	0.54151	0.00322
110.95903	36.54624	337.64759	0.54168	0.00483
111.34686	36.55043	337.63352	0.54200	0.00322
111.75749	36.53212	337.62368	0.54214	0.00483
112.22708	36.53475	337.63860	0.54246	0.00322
112.68667	36.54033	337.62740	0.54329	0.00322
113.39447	36.53824	337.63632	0.54355	0.00322
113.89195	36.52299	337.65609	0.54410	0.00322
114.46127	36.53686	337.64687	0.54438	0.00322
114.82232	36.53370	337.64405	0.54473	0.00483
115.32998	36.53217	337.64029	0.54492	0.00322
115.94811	36.53113	337.64377	0.54558	0.00322
116.50684	36.52992	337.65701	0.54586	0.00322
117.04259	36.53787	337.64160	0.54628	0.00322
117.59805	36.52864	337.63308	0.54670	0.00483
118.02871	36.52943	337.63873	0.54736	0.00322
118.83954	36.53248	337.64484	0.54740	0.00322
119.40644	36.52424	337.63834	0.54815	0.00322
119.96684	36.52666	337.63536	0.54819	0.00322
120.54651	36.52581	337.63382	0.54886	0.00483
121.03370	36.52657	337.64004	0.54895	0.00322
121.76534	36.53013	337.64806	0.54945	0.00322
122.15093	36.53564	337.63760	0.54367	0.00483
122.76440	579.61806	315.65760	0.51985	0.00645
123.34077	1302.41138	277.16604	0.47152	0.00806
123.97561	890.89739	301.61867	0.45712	0.00806
124.29308	40.85412	337.44876	0.56449	0.00967
124.73244	36.51274	337.61886	0.59625	0.00806
125.20621	36.49683	337.66273	0.60447	0.00806
125.78860	36.49831	337.67297	0.60890	0.00806
126.51098	36.48469	337.68316	0.61103	0.00645
127.10316	36.49276	337.66722	0.61075	0.00645
127.42237	36.47975	337.68234	0.61033	0.00483
127.86130	36.48523	337.69556	0.60957	0.00483
128.36727	36.48412	337.70077	0.60885	0.00483
128.92018	36.48169	337.67925	0.60811	0.00483
129.69662	36.47878	337.68508	0.60712	0.00483
130.17705	36.48550	337.68585	0.60633	0.00483
130.77790	36.48984	337.69043	0.60582	0.00483
131.37609	36.49247	337.67988	0.60516	0.00322
132.17571	36.49266	337.69699	0.60460	0.00483
132.91777	36.47784	337.68724	0.60417	0.00483
133.40425	36.48688	337.69069	0.60320	0.00483
133.88610	36.49591	337.69849	0.60253	0.00483
134.43749	36.48194	337.67348	0.60052	0.00483
134.83972	36.49670	337.66758	0.59673	0.00483
135.33424	36.49174	337.67209	0.59039	0.00645
135.84649	36.50358	337.68071	0.57092	0.00806
136.37370	36.52164	337.66510	0.54542	0.00806
136.99714	42.25514	337.35750	0.52159	0.00806
137.46738	608.33381	314.41945	0.49060	0.00967
138.00991	1210.45053	284.16317	0.47181	0.00806
138.68171	296.87655	326.26746	0.47500	0.00806
139.03434	36.52261	337.62584	0.58142	0.00645
139.56041	36.49876	337.65489	0.59898	0.00645
140.20941	36.49459	337.67274	0.60851	0.00645
140.68410	36.48128	337.67167	0.61034	0.00645
141.18839	36.48654	337.68909	0.61067	0.00645
141.66753	36.48466	337.67800	0.61010	0.00645
142.05285	36.48912	337.69174	0.60889	0.00483
142.50137	36.48717	337.68041	0.60655	0.00645
142.93633	36.48992	337.68001	0.60308	0.00483
143.52461	36.49052	337.69699	0.59802	0.00645
144.04247	36.48634	337.68264	0.58999	0.00483
144.50959	36.50393	337.67600	0.58073	0.00483
145.06424	36.50149	337.67522	0.57062	0.00645
145.62818	36.50923	337.65334	0.56267	0.00806
146.11990	36.50998	337.67022	0.55123	0.01289
146.64004	36.51521	337.65503	0.54620	0.01450
147.10426	36.51485	337.65065	0.54238	0.01611
147.54752	36.52277	337.65022	0.54000	0.01772
148.17731	36.54762	337.63704	0.53748	0.01772
148.68939	36.58885	337.63009	0.53384	0.01772
149.14887	43.03368	337.33256	0.53128	0.01772
149.64524	114.98451	333.73311	0.52905	0.01611
150.18662	252.83956	328.03765	0.52497	0.01611
150.63936	369.94208	323.67420	0.52154	0.01450
151.24184	487.80690	319.32000	0.51792	0.01611
151.70644	598.26292	314.81120	0.51510	0.01289
152.33362	815.72716	305.16218	0.51166	0.01128
152.74477	931.49251	299.78930	0.50876	0.01289
153.19777	1023.67760	295.20344	0.50629	0.01128
153.69898	1106.80672	290.53782	0.50384	0.00967
154.29179	1186.16451	285.65075	0.50049	0.00967
154.80586	1240.02540	281.86195	0.49773	0.00806
155.52289	1299.49837	277.16577	0.49527	0.00967
156.23466	1342.28112	273.07533	0.49098	0.00806
156.70099	1365.31586	270.54988	0.48792	0.00967
157.18348	1385.40357	268.05394	0.48564	0.00806
157.64287	1400.26065	265.79081	0.48359	0.00806
158.16535	1415.95074	263.17197	0.48123	0.00645
158.57805	1425.87102	261.15101	0.47919	0.00806
159.09495	1435.78605	258.37002	0.47776	0.00645
159.54263	1443.01806	255.65191	0.47560	0.00645
160.21887	1450.09621	253.66827	0.47374	0.00645
160.77863	1455.24218	253.71572	0.47247	0.00483
161.42107	1460.25389	253.77504	0.47085	0.00483
161.95436	1464.95307	253.75837	0.46938	0.00645
162.69420	1471.33963	253.70709	0.46807	0.00483
163.12834	1476.28081	253.69520	0.46650	0.00645
163.53209	1479.80905	253.66466	0.46532	0.00645
164.11313	1484.29869	253.61100	0.46461	0.00483
164.57191	1488.33621	253.55927	0.46332	0.00483
165.09986	1492.34004	253.50659	0.46240	0.00645
165.60754	1414.00038	268.34515	0.46117	0.00645
166.01196	1304.16228	272.38094	0.46062	0.00645
166.66331	1294.88360	267.67912	0.45954	0.00483
167.11400	1344.37347	265.61360	0.45847	0.00645
167.56495	1129.24136	287.47554	0.44483	0.00645
168.06597	669.36507	287.22080	0.42655	0.00806
168.49489	389.57499	285.85119	0.40937	0.00806
169.22597	331.54056	230.67351	0.39654	0.00967
169.80586	359.80406	217.22840	0.38805	0.00806
170.37763	374.23154	190.65142	0.38100	0.00806
171.05588	375.27161	190.66438	0.37748	0.00806
171.42869	383.13320	187.49726	0.37497	0.00645
172.13120	427.45405	184.34536	0.37348	0.00645
172.62325	422.08102	190.33249	0.37210	0.00645
173.09813	391.37178	197.69060	0.37114	0.00806
173.74216	627.72137	252.93553	0.37080	0.00483
174.20338	367.76178	228.54692	0.37006	0.00000
174.75410	542.42162	253.33519	0.36956	0.00645
175.19319	591.87228	240.67154	0.36939	0.00483
175.93368	94.14320	224.04454	0.36904	0.04512
176.29592	96.38252	225.74708	0.36898	-0.02095
176.93624	97.57961	224.44635	0.36867	-0.02095
177.46430	96.78328	225.89635	0.36865	0.03545
178.26527	95.76200	226.01241	0.36849	-0.01611
178.72358	95.04932	224.16298	0.36860	-0.02417
179.20185	93.64547	223.33777	0.37225	0.02900
179.77571	93.28894	222.85013	0.50237	-0.03062
180.21180	1457.93508	253.56136	0.52780	0.00645
181.04383	1319.89262	274.78662	0.53702	0.00645
181.69105	1127.10978	289.20931	0.53302	0.00483
182.18076	1012.94812	295.66790	0.52703	0.00645
182.86764	955.10855	298.58791	0.52221	0.00483
